Folder: XAnoS/SetupData

Note: SetupData/beamline_params.txt
#Informatoin regarding all the beamline PVs necessary for experiment

Monochromator_Status@[pv=15IDA:KohzuMoving]
Energy@[pv=15IDA:BraggE]
Wavelength@[pv=15IDA:BraggLambda]
BeamCurrent@[pv=S:SRcurrentAI.VAL]
Undulator_ID15Energy@[pv=15IDA:ID15_energy]
Undulator_Energy@[pv=ID15:Energy]
Undulator_1D15Gap@[pv=15IDA:ID15_gap]
Undulator_Gap@[pv=ID15:Gap]
Undulator_IDStatus@[pv=ID15:Busy.VAL]
Undulator_LocalStatus@[pv=15IDA:ID15_busy.VAL]
JJB_VSize@[pv=15IDB:Slit2Vt2.C]
JJB_HSize@[pv=15IDB:Slit2Ht2.C]
JJB_VPos@[pv=15IDB:Slit2Vt2.D]
JJB_HPos@[pv=15IDB:Slit2Ht2.D]
JJB_syncH@[pv=15IDB:Slit2Hsync.PROC]
JJB_syncV@[pv=15IDB:Slit2Vsync.PROC]
JJC_VSize@[pv=15IDC:Slit4VDt2.C]
JJC_HSize@[pv=15IDC:Slit4HDt2.C]
JJC_VPos@[pv=15IDC:Slit4VDt2.D]
JJC_HPos@[pv=15IDC:Slit4HDt2.D]
JJC_syncH@[pv=15IDC:Slit4HDsync.PROC]
JJC_syncV@[pv=15IDC:Slit4VDsync.PROC]
JJD_VSize@[pv=15IDD:Slit1Vt2.C]
JJD_HSize@[pv=15IDD:Slit1Ht2.C]
JJD_VPos@[pv=15IDD:Slit1Vt2.D]
JJD_HPos@[pv=15IDD:Slit1Ht2.D]
JJD_syncH@[pv=15IDD:Slit1Hsync.PROC]
JJD_syncV@[pv=15IDD:Slit1Vsync.PROC]

Note: SetupData/detector_params.txt
#Detector settings for several Area detectors
#First created on 04/17/2017
Mar_CCD@[pv=dp_mar165_xrd70:cam1:,det_folder=/tmp,cars_folder=/home/epics/CARS5/Data/chemmat/Data/saxs]
Apex2@[pv=15IDBIS:cam1:,det_folder=t:\chemmat\Data\saxs,cars_folder=/home/epics/CARS5/Data/chemmat/Data/saxs]
#Pilatus_1M@[pv=15PIL3:cam1:,det_folder=/ramdisk/chemmat/Data/saxs/,cars_folder=/home/epics/CARS5/Data/chemmat/Data/saxs/]
Pilatus_1M@[pv=15PIL3:cam1:,det_folder=/cars5/Data/Asax/,cars_folder=/mnt/ChemData/Data/Asax/]
PhotonII@[pv=13PII_1:cam1:,det_folder=/cars5/Data/chemmat/Data/saxs/,cars_folder=/home/epics/CARS5/Data/chemmat/Data/saxs/]
#Pilatus_100K@[pv=S33-pilatus1:cam1:,det_folder=/home/det/15idd,cars_folder=/home/epics/CARS5/Data/chemmat/Data/saxs]
#Pilatus_100K@[pv=usaxs_pilatus1:cam1:,det_folder=/home/det/15idd,cars_folder=/home/epics/CARS5/Data/chemmat/Data/saxs]
Pilatus_100K@[pv=dp_pilatusASD:cam1:,det_folder=/home/det/15idd/2018-11,cars_folder=/mnt/ChemData/ASAXS/2018-11]
Pilatus_300K@[pv=15PIL300K:cam1:,det_folder=/home/det/temp_images,cars_folder=/home/epics/CARS5/Data/chemmat/surf/]

Note: SetupData/motor_params.txt
#Information regarding all the motors PV
sr_z@[pv=15IDD:m1]
sr_x@[pv=15IDD:m2]
sr_y@[pv=15IDD:m3]
sf_x@[pv=15IDD:m4]
sf_y_i@[pv=15IDD:m5]
sf_y_o@[pv=15IDD:m6]
cmir@[pv=15IDD:m7]
c0m8@[pv=15IDD:m8]
bs_x@[pv=15IDD:m9]
bs_y@[pv=15IDD:m10]
bpm_x@[pv=15IDD:m11]
bpm_y@[pv=15IDD:m12]
c1m5@[pv=15IDD:m13]
s_x@[pv=15IDD:m19]
s_y@[pv=15IDD:m18]
c1m8@[pv=15IDD:m16]
#coll_yaw@[pv=15IDD:m17]
#coll_y@[pv=15IDD:m18]
#coll_x@[pv=15IDD:m19]
d_x@[pv=15IDD:m20]
JJD_t@[pv=15IDD:m21]
JJD_b@[pv=15IDD:m22]
JJD_o@[pv=15IDD:m23]
JJD_i@[pv=15IDD:m24]
JJB_t@[pv=15IDD:m14]
JJB_b@[pv=15IDB:m13]
JJB_o@[pv=15IDB:m8]
JJB_i@[pv=15IDB:m7]
JJC_t@[pv=15IDC:m39]
JJC_b@[pv=15IDC:m40]
JJC_o@[pv=15IDC:m49]
JJC_i@[pv=15IDC:m50]
Undulator_ID15Energy@[pv=15IDA:ID15_energy]
Undulator_Energy@[pv=ID15:Energy]
Energy@[pv=15IDA:BraggE]
shutter@[pv=15IDD:2openXIAShutter]
absorber@[pv=15IDD:atten1Move.VAL]

Note: SetupData/reducer_setup.txt
{"poniFile": "/mnt/ChemData/Data/Asax/2019-11/AgBh/AgBh_15_2keV/AgBh_15_2keV.poni", "maskFile": "/mnt/ChemData/Data/Asax/2019-11/AgBh/AgBh_30keV/mask_30keV.msk"}

Note: SetupData/saxs_params.txt
#Informatoin regarding all the necessary PVs required for SAXS data
Monitor@[pv=15IDD:vsc:c0.S8]
Diode@[pv=15IDD:vsc:c0.S6]
BSDiode@[pv=15IDD:vsc:c0.S4]
count_time@[pv=15IDD:vsc:c0.TP]
xcradle@[pv=None]
sampleX@[pv=15IDD:m14]
sampleY@[pv=15IDD:m15]

Note: SetupData/scaler_params.txt
#Informatoin regarding all the scalars
scaler_start@[pv=15IDD:vsc:c0.CNT]
scaler_mode@[pv=15IDD:vsc:c0.CONT]
scaler_count_time@[pv=15IDD:vsc:c0.TP]
vortex_start@[pv=dxpSatrun:mca1Start]
vortext_count_time@[pv=dxpSaturn:mca1.PRTM]
diode@[pv=15IDD:vsc:c0.S6]
bs_diode@[pv=15IDD:vsc:c0.S4]
monitor@[pv=15IDD:vsc:c0.S8]
monitorB@[pv=15IDB:scaler1.S2]

Note: SetupData/slit_params.txt
# Information regarding all slit parameters
#JJD parameters
JJD_HGap@[pv=15IDD:Slit1Hsize,rbk=15IDD:Slit1Ht2.C,mov1=15IDD:m23,mov2=15IDD:m24]
JJD_HCenter@[pv=15IDD:Slit1Hcenter,rbk=15IDD:Slit1Ht2.D,mov1=15IDD:m23,mov2=15IDD:m24]
JJD_VGap@[pv=15IDD:Slit1Vsize,rbk=15IDD:Slit1Vt2.C,mov1=15IDD:m21,mov2=15IDD:m22]
JJD_VCenter@[pv=15IDD:Slit1Vcenter,rbk=15IDD:Slit1Vt2.D,mov1=15IDD:m21,mov2=15IDD:m22]
#
#JJC parameters
JJC_HGap@[pv=15IDC:Slit4HDsize,rbk=15IDC:Slit4HDt2.C,mov1=15IDC:m49,mov2=15IDC:m50]
JJC_HCenter@[pv=15IDC:Slit4HDcenter,rbk=15IDC:Slit4HDt2.D,mov1=15IDC:m49,mov2=15IDC:m50]
JJC_VGap@[pv=15IDC:Slit4VDsize,rbk=15IDC:Slit4VDt2.C,mov1=15IDC:m39,mov2=15IDC:m40]
JJC_VCenter@[pv=15IDC:Slit4VDcenter,rbk=15IDC:Slit4VDt2.D,mov1=15IDC:m39,mov2=15IDC:m40]
#
#JJD parameters
JJB_HGap@[pv=15IDB:Slit2Hsize,rbk=15IDB:Slit2Ht2.C,mov1=15IDB:m7,mov2=15IDB:m8]
JJB_HCenter@[pv=15IDB:Slit2Hcenter,rbk=15IDB:Slit2Ht2.D,mov1=15IDB:m7,mov2=15IDB:m8]
JJB_VGap@[pv=15IDG:Slit2Vsize,rbk=15IDB:Slit2Vt2.C,mov1=15IDB:m13,mov2=15IDB:m14]
JJB_VCenter@[pv=15IDB:Slit2Vcenter,rbk=15IDB:Slit2Vt2.D,mov1=15IDB:m13,mov2=15IDB:m14]

Note: README
These are collection of python widgets developed at ChemMatCARS, 15IDD, Advanced Photon Sources for measuring and analysing SAXS and ASAXS data.

File: glassy_carbon_saxs_std.txt
#Q (Angs^-1) I (cm^-1)  I_err(cm^-1)
0.00827568	34.9334	0.398241
0.00888450	34.4272	0.392470
0.00954735	34.0422	0.388081
0.01026900	33.6986	0.384164
0.01105780	33.3525	0.380219
0.01191830	33.0275	0.376514
0.01286110	32.665	0.372382
0.01389340	32.3067	0.368296
0.01502510	31.9705	0.364464
0.01626850	31.5591	0.359774
0.01763650	31.1838	0.355495
0.01914320	30.8618	0.351825
0.02080510	30.5143	0.347863
0.02264220	30.085	0.342969
0.02467500	29.6904	0.338471
0.02692890	29.25	0.333450
0.02943170	28.89	0.329346
0.03221560	28.4493	0.324322
0.03531810	28.066	0.319952
0.03878270	27.705	0.315837
0.04265880	27.3313	0.311577
0.04700390	26.9741	0.307504
0.05188580	26.677	0.304117
0.05738140	26.4012	0.300973
0.06358290	26.1774	0.298423
0.07059620	25.9047	0.295313
0.07854840	25.5287	0.291028
0.08758630	24.9177	0.284062
0.09788540	23.9465	0.272990
0.109655	22.4721	0.256182
0.114312	21.7772	0.248260
0.118395	21.1129	0.240687
0.122624	20.4011	0.232573
0.123142	20.2871	0.231272
0.127004	19.6851	0.224410
0.13154	18.9098	0.215572
0.136239	18.0892	0.206217
0.138643	17.6796	0.201547
0.141105	17.2641	0.196811
0.146145	16.3728	0.186650
0.151365	15.4583	0.176225
0.156513	14.5877	0.166300
0.156771	14.5631	0.166019
0.162371	13.6167	0.155230
0.16817	12.6685	0.144421
0.174177	11.7523	0.133976
0.177181	11.3115	0.128951
0.180398	10.8622	0.123829
0.186841	9.961979	0.113567
0.193515	9.116906	0.103933
0.200427	8.325578	0.094912
0.201165	8.224897	0.093764
0.207586	7.541931	0.085978
0.215	6.854391	0.078140
0.222679	6.216070	0.070863
0.229095	5.715911	0.065161
0.230633	5.582366	0.063639
0.238871	4.999113	0.056990
0.247402	4.463604	0.050885